{
    "resourceType": "Bundle",
    "id": "58059d37-a467-40f5-99c3-606df1b1e43a",
    "type": "message",
    "entry": [
        {
            "resource": {
                "resourceType": "MessageHeader",
                "id": "f8de0352-1fc2-40e7-9c74-67459f452451",
                "focus": [
                    {
                        "reference": "A7B86F8D-1D5E-FC28-E050-D20AE3A215F0"
                    },
                    {
                        "reference": "A7B86F8D-1D63-FC28-E050-D20AE3A215F0"
                    },
                    {
                        "reference": "A7B86F8D-1D68-FC28-E050-D20AE3A215F0"
                    },
                    {
                        "reference": "0b7aec72-4c65-490f-82a6-6a99a9c3affd"
                    },
                    {
                        "reference": "89a939c7-deea-450b-91eb-0147c6a8af54"
                    }
                ]
            }
        },
        {
            "resource": {
                "resourceType": "Patient",
                "id": "0b7aec72-4c65-490f-82a6-6a99a9c3affd",
                "identifier": [
                    {
                        "extension": [
                            {
                                "url": "https://fhir.nhs.uk/R4/StructureDefinition/Extension-UKCore-NHSNumberVerificationStatus",
                                "valueCodeableConcept": {
                                    "coding": [
                                        {
                                            "system": "https://fhir.nhs.uk/R4/CodeSystem/UKCore-NHSNumberVerificationStatus",
                                            "code": "01",
                                            "display": "Number present and verified"
                                        }
                                    ]
                                }
                            }
                        ],
                        "system": "https://fhir.nhs.uk/Id/nhs-number",
                        "value": "9453740594"
                    }
                ],
                "name": [
                    {
                        "use": "official",
                        "family": "GITAY",
                        "given": [
                            "DUKE",
                            "DERYCK"
                        ],
                        "prefix": [
                            "MR"
                        ]
                    }
                ],
                "gender": "male",
                "birthDate": "1980-12-29",
                "address": [
                    {
                        "use": "home",
                        "postalCode": "DE3 9AW"
                    }
                ],
                "managingOrganization": {
                    "reference": "https://directory.spineservices.nhs.uk/STU3/Organization/C85001"
                }
            }
        },
        {
            "resource": {
                "resourceType": "Practitioner",
                "id": "d0290d3c-fe67-49c1-826d-419341931474",
                "identifier": [
                    {
                        "system": "https://fhir.nhs.uk/Id/sds-user-id",
                        "value": "9810598"
                    }
                ],
                "name": [
                    {
                        "text": "JOCELYN|MATERS"
                    }
                ]
            }
        },
        {
            "resource": {
                "resourceType": "Organization",
                "id": "ee86645a-c3fa-4f73-9878-043e6a7e1757",
                "identifier": [
                    {
                        "system": "https://fhir.nhs.uk/Id/ods-organization-code",
                        "value": "C85001"
                    }
                ],
                "type": [
                    {
                        "coding": [
                            {
                                "system": "urn:uuid:2.16.840.1.113883.2.1.3.2.4.17.94",
                                "code": "001"
                            }
                        ]
                    }
                ],
                "name": "GOLDTHORPE MEDICAL CENTRE PMS PRACTICE",
                "address": [
                    {
                        "line": [
                            "GOLDTHORPE GREEN",
                            "GOLDTHORPE",
                            "ROTHERHAM",
                            "SOUTH YORKSHIRE"
                        ],
                        "postalCode": "S63 9EH"
                    }
                ],
                "partOf": {
                    "identifier": {
                        "system": "https://fhir.nhs.uk/Id/ods-organization-code",
                        "value": "5JE"
                    }
                }
            }
        },
        {
            "resource": {
                "resourceType": "PractitionerRole",
                "id": "89a939c7-deea-450b-91eb-0147c6a8af54",
                "identifier": [
                    {
                        "system": "https://fhir.nhs.uk/Id/sds-role-profile-id",
                        "value": "100120604985"
                    }
                ],
                "practitioner": {
                    "reference": "Practitioner/d0290d3c-fe67-49c1-826d-419341931474"
                },
                "organization": {
                    "reference": "Organization/ee86645a-c3fa-4f73-9878-043e6a7e1757"
                }
            }
        },
        {
            "resource": {
                "resourceType": "MedicationRequest",
                "id": "A7B86F8D-1D5E-FC28-E050-D20AE3A215F0",
                "extension": [
                    {
                        "url": "https://fhir.nhs.uk/R4/StructureDefinition/Extension-prescriptionType",
                        "valueCoding": {
                            "system": "https://fhir.nhs.uk/R4/CodeSystem/prescription-type",
                            "code": "0101"
                        }
                    },
                    {
                        "url": "https://fhir.nhs.uk/R4/StructureDefinition/Extension-DM-ResponsiblePractitioner",
                        "valueReference": {
                            "reference": "d0290d3c-fe67-49c1-826d-419341931474"
                        }
                    }
                ],
                "identifier": [
                    {
                        "system": "https://fhir.nhs.uk/Id/prescription-line-id",
                        "value": "A7B86F8D-1D5E-FC28-E050-D20AE3A215F0"
                    }
                ],
                "status": "active",
                "intent": "order",
                "medicationCodeableConcept": {
                    "coding": [
                        {
                            "system": "http://snomed.info/sct",
                            "code": "134489001",
                            "display": "Atorvastatin 80mg tablets"
                        }
                    ]
                },
                "subject": {
                    "reference": "0b7aec72-4c65-490f-82a6-6a99a9c3affd"
                },
                "authoredOn": "2019-12-30T12:00:00+00:00",
                "requester": {
                    "reference": "d0290d3c-fe67-49c1-826d-419341931474"
                },
                "groupIdentifier": {
                    "extension": [
                        {
                            "url": "https://fhir.nhs.uk/R4/StructureDefinition/Extension-PrescriptionId",
                            "valueString": "A7B86F8D-1CE8-FC28-E050-D20AE3A215F0"
                        }
                    ],
                    "system": "https://fhir.nhs.uk/Id/prescription-short-form",
                    "value": "485BCD-C85001-0DCF7D"
                },
                "courseOfTherapyType": {
                    "coding": [
                        {
                            "system": "https://fhir.nhs.uk/R4/CodeSystem/CareConnect-PrescriptionType",
                            "code": "acute",
                            "display": "Acute"
                        }
                    ]
                },
                "dosageInstruction": [
                    {
                        "text": "ONE tablet to be taken at night"
                    }
                ],
                "dispenseRequest": {
                    "extension": [
                        {
                            "url": "https://fhir.nhs.uk/R4/StructureDefinition/Extension-performerType",
                            "valueCoding": {
                                "system": "https://fhir.nhs.uk/R4/CodeSystem/dispensing-site-preference",
                                "code": "0004"
                            }
                        }
                    ],
                    "quantity": {
                        "value": 56,
                        "unit": "tablet",
                        "system": "http://snomed.info/sct",
                        "code": "428673006"
                    }
                }
            }
        },
        {
            "resource": {
                "resourceType": "MedicationRequest",
                "id": "A7B86F8D-1D63-FC28-E050-D20AE3A215F0",
                "extension": [
                    {
                        "url": "https://fhir.nhs.uk/R4/StructureDefinition/Extension-prescriptionType",
                        "valueCoding": {
                            "system": "https://fhir.nhs.uk/R4/CodeSystem/prescription-type",
                            "code": "0101"
                        }
                    },
                    {
                        "url": "https://fhir.nhs.uk/R4/StructureDefinition/Extension-DM-ResponsiblePractitioner",
                        "valueReference": {
                            "reference": "d0290d3c-fe67-49c1-826d-419341931474"
                        }
                    }
                ],
                "identifier": [
                    {
                        "system": "https://fhir.nhs.uk/Id/prescription-line-id",
                        "value": "A7B86F8D-1D63-FC28-E050-D20AE3A215F0"
                    }
                ],
                "status": "active",
                "intent": "order",
                "medicationCodeableConcept": {
                    "coding": [
                        {
                            "system": "http://snomed.info/sct",
                            "code": "8159711000001102",
                            "display": "Qvar 100micrograms/dose Easi-Breathe inhaler (Teva UK Ltd)"
                        }
                    ]
                },
                "subject": {
                    "reference": "0b7aec72-4c65-490f-82a6-6a99a9c3affd"
                },
                "authoredOn": "2019-12-30T12:00:00+00:00",
                "requester": {
                    "reference": "d0290d3c-fe67-49c1-826d-419341931474"
                },
                "groupIdentifier": {
                    "extension": [
                        {
                            "url": "https://fhir.nhs.uk/R4/StructureDefinition/Extension-PrescriptionId",
                            "valueString": "A7B86F8D-1CE8-FC28-E050-D20AE3A215F0"
                        }
                    ],
                    "system": "https://fhir.nhs.uk/Id/prescription-short-form",
                    "value": "485BCD-C85001-0DCF7D"
                },
                "courseOfTherapyType": {
                    "coding": [
                        {
                            "system": "https://fhir.nhs.uk/R4/CodeSystem/CareConnect-PrescriptionType",
                            "code": "acute",
                            "display": "Acute"
                        }
                    ]
                },
                "dosageInstruction": [
                    {
                        "text": "Use as directed"
                    }
                ],
                "dispenseRequest": {
                    "extension": [
                        {
                            "url": "https://fhir.nhs.uk/R4/StructureDefinition/Extension-performerType",
                            "valueCoding": {
                                "system": "https://fhir.nhs.uk/R4/CodeSystem/dispensing-site-preference",
                                "code": "0004"
                            }
                        }
                    ],
                    "quantity": {
                        "value": 200,
                        "unit": "dose",
                        "system": "http://snomed.info/sct",
                        "code": "3317411000001100"
                    }
                }
            }
        },
        {
            "resource": {
                "resourceType": "MedicationRequest",
                "id": "A7B86F8D-1D68-FC28-E050-D20AE3A215F0",
                "extension": [
                    {
                        "url": "https://fhir.nhs.uk/R4/StructureDefinition/Extension-prescriptionType",
                        "valueCoding": {
                            "system": "https://fhir.nhs.uk/R4/CodeSystem/prescription-type",
                            "code": "0101"
                        }
                    },
                    {
                        "url": "https://fhir.nhs.uk/R4/StructureDefinition/Extension-DM-ResponsiblePractitioner",
                        "valueReference": {
                            "reference": "d0290d3c-fe67-49c1-826d-419341931474"
                        }
                    }
                ],
                "identifier": [
                    {
                        "system": "https://fhir.nhs.uk/Id/prescription-line-id",
                        "value": "A7B86F8D-1D68-FC28-E050-D20AE3A215F0"
                    }
                ],
                "status": "active",
                "intent": "order",
                "medicationCodeableConcept": {
                    "coding": [
                        {
                            "system": "http://snomed.info/sct",
                            "code": "330116003",
                            "display": "Baclofen 10mg tablets"
                        }
                    ]
                },
                "subject": {
                    "reference": "0b7aec72-4c65-490f-82a6-6a99a9c3affd"
                },
                "authoredOn": "2019-12-30T12:00:00+00:00",
                "requester": {
                    "reference": "d0290d3c-fe67-49c1-826d-419341931474"
                },
                "groupIdentifier": {
                    "extension": [
                        {
                            "url": "https://fhir.nhs.uk/R4/StructureDefinition/Extension-PrescriptionId",
                            "valueString": "A7B86F8D-1CE8-FC28-E050-D20AE3A215F0"
                        }
                    ],
                    "system": "https://fhir.nhs.uk/Id/prescription-short-form",
                    "value": "485BCD-C85001-0DCF7D"
                },
                "courseOfTherapyType": {
                    "coding": [
                        {
                            "system": "https://fhir.nhs.uk/R4/CodeSystem/CareConnect-PrescriptionType",
                            "code": "acute",
                            "display": "Acute"
                        }
                    ]
                },
                "dosageInstruction": [
                    {
                        "text": "ONE tablet to be taken THREE times a day"
                    }
                ],
                "dispenseRequest": {
                    "extension": [
                        {
                            "url": "https://fhir.nhs.uk/R4/StructureDefinition/Extension-performerType",
                            "valueCoding": {
                                "system": "https://fhir.nhs.uk/R4/CodeSystem/dispensing-site-preference",
                                "code": "0004"
                            }
                        }
                    ],
                    "quantity": {
                        "value": 42,
                        "unit": "tablet",
                        "system": "http://snomed.info/sct",
                        "code": "428673006"
                    }
                }
            }
        }
    ]
}