<Bundle xmlns="http://hl7.org/fhir">
  <id value="7EB02341-5F62-4A76-2CD3-34F523452356" />
  <type value="message" />
  <entry>
    <fullUrl value="urn:oid:95675fed-25a6-4d75-8351-49707f9d3360" />
    <resource>
      <MessageHeader>
        <id value="95675fed-25a6-4d75-8351-49707f9d3360" />
        <eventCoding>
          <system value="https://fhir.nhs.uk/CodeSystem/message-events" />
          <code value="medication-request-encoded-create" />
          <display value="Pharmacy/Treatment Encoded Order" />
        </eventCoding>
        <destination>
          <name value="ROUTE" />
          <target>
            <display value="ROUTE" />
          </target>
          <endpoint value="ROUTE" />
        </destination>
        <sender>
          <identifier>
            <system value="https://fhir.nhs.uk/Id/ods-organization-code" />
            <value value="RCB" />
          </identifier>
          <display value="RCB" />
        </sender>
        <source>
          <name value="PAS" />
          <endpoint value="PAS" />
        </source>
        <focus>
          <reference value="urn:uuid:7B38DE32-877F-6D53-D27C-86E1BA35016C" />
        </focus>
        <focus>
          <reference value="urn:uuid:8D12DE62-826F-8D32-E17C-86D3BA56013E" />
        </focus>
        <focus>
          <reference value="urn:uuid:9A12DE62-826F-8D32-E17C-86D3BA56023F" />
        </focus>
        <focus>
          <reference value="urn:uuid:2A32DE62-826F-8D32-E17C-86D3BA56013D" />
        </focus>
      </MessageHeader>
    </resource>
  </entry>
  <entry>
    <fullUrl value="urn:uuid:7B38DE32-877F-6D53-D27C-86E1BA35016C" />
    <resource>
      <MedicationRequest>
        <id value="7B38DE32-877F-6D53-D27C-86E1BA35016C" />
        <status value="active" />
        <intent value="order" />
        <medicationCodeableConcept>
          <coding>
            <system value="http://snomed.info/sct" />
            <code value="317896006" />
            <display value="Digoxin 125 microgram oral tablet" />
          </coding>
        </medicationCodeableConcept>
        <subject>
          <reference value="urn:uuid:C6750CAA-3CA9-4F29-A282-6EE1AA5D7D4C" />
        </subject>
        <encounter>
          <reference value="urn:uuid:401AEEE1-0E1B-42A0-989C-03DEA8667CB7" />
        </encounter>
        <authoredOn value="2008-02-27T11:38:00+00:00" />
        <requester>
          <reference value="urn:uuid:1557E58E-3B1E-41DD-B3B5-D4D393DC5A3D" />
        </requester>
        <dosageInstruction>
          <text value="1 tablet after breakfast" />
        </dosageInstruction>
        <dispenseRequest>
          <quantity>
            <value value="28" />
            <unit value="tablet" />
            <system value="http://snomed.info/sct" />
            <code value="3319411000001109" />
          </quantity>
        </dispenseRequest>
      </MedicationRequest>
    </resource>
  </entry>
  <entry>
    <fullUrl value="urn:uuid:8D12DE62-826F-8D32-E17C-86D3BA56013E" />
    <resource>
      <MedicationRequest>
        <id value="8D12DE62-826F-8D32-E17C-86D3BA56013E" />
        <status value="active" />
        <intent value="order" />
        <medicationCodeableConcept>
          <coding>
            <system value="http://snomed.info/sct" />
            <code value="319775004" />
            <display value="Aspirin 75 mg oral tablet" />
          </coding>
        </medicationCodeableConcept>
        <subject>
          <reference value="urn:uuid:C6750CAA-3CA9-4F29-A282-6EE1AA5D7D4C" />
        </subject>
        <encounter>
          <reference value="urn:uuid:401AEEE1-0E1B-42A0-989C-03DEA8667CB7" />
        </encounter>
        <authoredOn value="2008-02-27T11:38:00+00:00" />
        <requester>
          <reference value="urn:uuid:1557E58E-3B1E-41DD-B3B5-D4D393DC5A3D" />
        </requester>
        <dosageInstruction>
          <text value="1 tablet during breakfast" />
        </dosageInstruction>
        <dispenseRequest>
          <quantity>
            <value value="28" />
            <unit value="tablet" />
            <system value="http://snomed.info/sct" />
            <code value="3319411000001109" />
          </quantity>
        </dispenseRequest>
      </MedicationRequest>
    </resource>
  </entry>
  <entry>
    <fullUrl value="urn:uuid:9A12DE62-826F-8D32-E17C-86D3BA56023F" />
    <resource>
      <MedicationRequest>
        <id value="9A12DE62-826F-8D32-E17C-86D3BA56023F" />
        <status value="active" />
        <intent value="order" />
        <medicationCodeableConcept>
          <coding>
            <system value="http://snomed.info/sct" />
            <code value="377145005" />
            <display value="Lorazepam 2 mg oral tablet" />
          </coding>
        </medicationCodeableConcept>
        <subject>
          <reference value="urn:uuid:C6750CAA-3CA9-4F29-A282-6EE1AA5D7D4C" />
        </subject>
        <encounter>
          <reference value="urn:uuid:401AEEE1-0E1B-42A0-989C-03DEA8667CB7" />
        </encounter>
        <authoredOn value="2008-02-27T11:38:00+00:00" />
        <requester>
          <reference value="urn:uuid:1557E58E-3B1E-41DD-B3B5-D4D393DC5A3D" />
        </requester>
        <dosageInstruction>
          <text value="3 tablets before breakfast" />
        </dosageInstruction>
        <dispenseRequest>
          <quantity>
            <value value="84" />
            <unit value="tablet" />
            <system value="http://snomed.info/sct" />
            <code value="3319411000001109" />
          </quantity>
        </dispenseRequest>
      </MedicationRequest>
    </resource>
  </entry>
  <entry>
    <fullUrl value="urn:uuid:2A32DE62-826F-8D32-E17C-86D3BA56013D" />
    <resource>
      <MedicationRequest>
        <id value="2A32DE62-826F-8D32-E17C-86D3BA56013D" />
        <status value="active" />
        <intent value="order" />
        <medicationCodeableConcept>
          <coding>
            <system value="http://snomed.info/sct" />
            <code value="421375004" />
            <display value="Citalopram (as citalopram hydrobromide) 40 mg orodispersible tablet" />
          </coding>
        </medicationCodeableConcept>
        <subject>
          <reference value="urn:uuid:C6750CAA-3CA9-4F29-A282-6EE1AA5D7D4C" />
        </subject>
        <encounter>
          <reference value="urn:uuid:401AEEE1-0E1B-42A0-989C-03DEA8667CB7" />
        </encounter>
        <authoredOn value="2008-02-27T11:38:00+00:00" />
        <requester>
          <reference value="urn:uuid:1557E58E-3B1E-41DD-B3B5-D4D393DC5A3D" />
        </requester>
        <dosageInstruction>
          <text value="2 tablets after breakfast" />
        </dosageInstruction>
        <dispenseRequest>
          <quantity>
            <value value="56" />
            <unit value="tablet" />
            <system value="http://snomed.info/sct" />
            <code value="3319411000001109" />
          </quantity>
        </dispenseRequest>
      </MedicationRequest>
    </resource>
  </entry>
  <entry>
    <fullUrl value="urn:uuid:C6750CAA-3CA9-4F29-A282-6EE1AA5D7D4C" />
    <resource>
      <Patient>
        <id value="C6750CAA-3CA9-4F29-A282-6EE1AA5D7D4C" />
        <identifier>
          <system value="https://fhir.nhs.uk/Id/nhs-number" />
          <value value="9900008464" />
        </identifier>
        <name>
          <use value="official" />
          <family value="Anderson" />
          <given value="Michael" />
          <given value="Jack" />
          <prefix value="Mr" />
        </name>
        <gender value="male" />
        <birthDate value="1973-04-21" />
        <address>
          <use value="home" />
          <type value="both" />
          <line value="1 Otley Road," />
          <city value="Leeds" />
          <postalCode value="LS6 5RU" />
        </address>
      </Patient>
    </resource>
  </entry>
  <entry>
    <fullUrl value="urn:uuid:1557E58E-3B1E-41DD-B3B5-D4D393DC5A3D" />
    <resource>
      <Practitioner>
        <id value="1557E58E-3B1E-41DD-B3B5-D4D393DC5A3D" />
        <identifier>
          <system value="https://fhir.nhs.uk/Id/sds-user-id" />
          <value value="125686540025" />
        </identifier>
        <identifier>
          <system value="https://fhir.nhs.uk/Id/sds-job-role-id" />
          <value value="R0260" />
        </identifier>
        <identifier>
          <system value="https://fhir.nhs.uk/Id/sds-role-profile-id" />
          <value value="934565838956" />
        </identifier>
        <name>
          <use value="official" />
          <family value="Hurst" />
          <prefix value="Dr" />
        </name>
        <telecom>
          <system value="phone" />
          <value value="tel:011327534256" />
          <use value="work" />
        </telecom>
      </Practitioner>
    </resource>
  </entry>
  <entry>
    <fullUrl value="urn:uuid:401AEEE1-0E1B-42A0-989C-03DEA8667CB7" />
    <resource>
      <Encounter>
        <id value="401AEEE1-0E1B-42A0-989C-03DEA8667CB7" />
        <status value="finished" />
        <class>
          <system value="http://terminology.hl7.org/CodeSystem/v3-ActCode" />
          <code value="AMB" />
        </class>
        <serviceProvider>
          <reference value="urn:uuid:6666C3B3-FDCD-41B8-9D69-AD1E6D99D9FC" />
        </serviceProvider>
      </Encounter>
    </resource>
  </entry>
  <entry>
    <fullUrl value="urn:uuid:6666C3B3-FDCD-41B8-9D69-AD1E6D99D9FC" />
    <resource>
      <Organization>
        <id value="6666C3B3-FDCD-41B8-9D69-AD1E6D99D9FC" />
        <identifier>
          <system value="https://fhir.nhs.uk/Id/ods-organization-code" />
          <value value="M85011" />
        </identifier>
        <type>
          <coding>
            <system value="urn:oid:2.16.840.1.113883.2.1.3.2.4.17.94" />
            <code value="001" />
            <display value="General Medical Practice" />
          </coding>
        </type>
        <name value="Signing_Surg_1" />
        <telecom>
          <system value="phone" />
          <value value="tel:01132754568" />
          <use value="work" />
        </telecom>
        <address>
          <use value="work" />
          <line value="1 Princes Street" />
          <city value="Leeds" />
          <postalCode value="LS1 5AH" />
        </address>
        <partOf>
          <reference value="urn:uuid:8DCB2153-09F5-4604-9229-A5C8C7195199" />
        </partOf>
      </Organization>
    </resource>
  </entry>
  <entry>
    <fullUrl value="urn:uuid:8DCB2153-09F5-4604-9229-A5C8C7195199" />
    <resource>
      <Organization>
        <id value="8DCB2153-09F5-4604-9229-A5C8C7195199" />
        <identifier>
          <system value="https://fhir.nhs.uk/Id/ods-organization-code" />
          <value value="4CD" />
        </identifier>
        <type>
          <coding>
            <system value="urn:oid:2.16.840.1.113883.2.1.3.2.4.17.94" />
            <code value="005" />
            <display value="Primary Care Trust" />
          </coding>
        </type>
        <name value="West Yorkshire" />
      </Organization>
    </resource>
  </entry>
</Bundle>