<Bundle xmlns="http://hl7.org/fhir">
  <id value="7EB02341-5F62-4A76-2CD3-34F523452356" />
  <type value="message" />
  <entry>
    <fullUrl value="urn:oid:95675fed-25a6-4d75-8351-49707f9d3360" />
    <resource>
      <MessageHeader>
        <id value="95675fed-25a6-4d75-8351-49707f9d3360" />
        <eventCoding>
          <system value="https://fhir.nhs.uk/CodeSystem/message-event" />
          <code value="medication-request-encoded-create" />
          <display value="Pharmacy/Treatment Encoded Order" />
        </eventCoding>
        <destination>
          <name value="ROUTE" />
          <target>
            <display value="ROUTE" />
          </target>
          <endpoint value="ROUTE" />
        </destination>
        <sender>
          <identifier>
            <system value="https://fhir.nhs.uk/Id/ods-organization-code" />
            <value value="RCB" />
          </identifier>
          <display value="RCB" />
        </sender>
        <source>
          <name value="PAS" />
          <endpoint value="PAS" />
        </source>
        <focus>
          <reference value="urn:uuid:EDD2E9DD-DA0A-C266-A4E3-447C68239524" />
        </focus>
        <focus>
          <reference value="urn:uuid:C6750CAA-3CA9-4F29-A282-6EE1AA5D7D4C" />
        </focus>
      </MessageHeader>
    </resource>
  </entry>
  <entry>
    <fullUrl value="urn:uuid:EDD2E9DD-DA0A-C266-A4E3-447C68239524" />
    <resource>
      <MedicationRequest>
        <!-- Can be ParentPrescription.id -->
        <id value="EDD2E9DD-DA0A-C266-A4E3-447C68239524" />
        <!-- Can be Prescription.id 2.16.840.1.113883.2.1.3.2.4.18.8 -->
        <identifier>
          <system value="https://fhir.nhs.uk/Id/prescription-short-form" />
          <value value="83C40E-A23856-00123C" />
        </identifier> 
        <status value="active" />
        <intent value="order" />
        <medicationCodeableConcept>
          <coding>
            <system value="http://snomed.info/sct" />
            <code value="317896006" />
            <display value="Digoxin 125 microgram oral tablet" />
          </coding>
        </medicationCodeableConcept>
        <subject>
          <reference value="urn:uuid:C6750CAA-3CA9-4F29-A282-6EE1AA5D7D4C" />
        </subject>
        <encounter>
          <reference value="urn:uuid:401AEEE1-0E1B-42A0-989C-03DEA8667CB7" />
        </encounter>
        <!-- ParentPrescription.effectiveTime -->
        <authoredOn value="2004-09-20T10:30:000+00:00" />
        <requester>
          <reference value="urn:uuid:1557E58E-3B1E-41DD-B3B5-D4D393DC5A3D" />
        </requester>
        <dosageInstruction>
          <text value="1 tablet after breakfast" />
        </dosageInstruction>
        <dispenseRequest>
          <quantity>
            <value value="28" />
            <unit value="tablet" />
            <system value="http://snomed.info/sct" />
            <code value="3319411000001109" />
          </quantity>
        </dispenseRequest>
      </MedicationRequest>
    </resource>
  </entry>
   <entry>
    <fullUrl value="urn:uuid:C6750CAA-3CA9-4F29-A282-6EE1AA5D7D4C" />
    <resource>
      <Patient>
        <id value="C6750CAA-3CA9-4F29-A282-6EE1AA5D7D4C" />
        <!-- `Patient.id -->
        <identifier>
          <system value="https://fhir.nhs.uk/Id/nhs-number" />
          <value value="9900002717" />
        </identifier>
        <!-- Patient.patientPerson.name -->
        <name>
          <use value="official" />
          <family value="Smith" />
          <given value="Frank" />
          <given value="Simon" />
          <prefix value="Mr" />
        </name>
        <!-- Patient.administrativeGenderCode -->
        <gender value="male" />
         <!-- Patient.birthTime -->
        <birthDate value="1972-12-07" />
         <!-- `Patient.addr use="H" -->
        <address>
          <use value="home" />
          <type value="both" />
          <line value="10, The High Street," />
          <city value="Simple Town" />
          <postalCode value="AA1 1AA" />
        </address>
      </Patient>
    </resource>
  </entry>
</Bundle>