{
    "resourceType": "Bundle",
    "id": "6d35aaf2-5d66-43f4-81ce-0c138995c833",
    "identifier": {
      "system": "https://tools.ietf.org/html/rfc4122",
      "value": "3ea4acf9-0d16-4442-9111-6032c8fe25d5"
    },
    "type": "message",
    "entry" : [
      {
        "fullUrl": "urn:uuid:5bfb024a-3bc0-4c5c-82d0-cfc054a19d71",
        "resource": {
          "eventCoding": {
            "system": "https://fhir.nhs.uk/CodeSystem/message-event",
            "code": "prescription-order",
            "display": "Prescription Order"
          },
          "focus": [
            {"reference": "urn:uuid:9e9ffae9-af20-48d9-9a5d-16d3e928ec3b"}, 
            {"reference": "urn:uuid:8e725e5b-6e70-44c1-99fc-61b35783fa8a"}
          ],
          "id": "5bfb024a-3bc0-4c5c-82d0-cfc054a19d71",
          "resourceType": "MessageHeader",
          "sender": {
            "identifier" : {
              "system" : "https://fhir.nhs.uk/Id/ods-organization-code",
              "value" : "RBA"
            },
            "reference": "urn:uuid:681054f8-7df4-419e-ad02-fd0b68d1bdb2",
            "display" : "RAZIA|ALI"
          },
          "source": {
            "endpoint" : "urn:nhs-uk:addressing:ods:RBA"
          },
          "destination" : [ {
            "endpoint" : "urn:nhs-uk:addressing:ods:FH542",
            "receiver" : {
              "identifier" : {
                "system" : "https://fhir.nhs.uk/Id/ods-organization-code",
                "value" : "FH542"
              }
            }
          } ]
        }
      }, 
      {
        "resource": {
          "resourceType": "Patient",
          "id": "9e9ffae9-af20-48d9-9a5d-16d3e928ec3b",
          "identifier": [
            {
              "system": "https://fhir.nhs.uk/Id/nhs-number",
              "value": "9453740586",
              "extension": [
                {
                  "url": "https://fhir.nhs.uk/R4/StructureDefinition/Extension-UKCore-NHSNumberVerificationStatus",
                  "valueCodeableConcept": {
                    "coding": [
                      {
                        "system": "https://fhir.nhs.uk/R4/CodeSystem/UKCore-NHSNumberVerificationStatus",
                        "code": "01",
                        "display": "Number present and verified"
                      }
                    ]
                  }
                }
              ]
            }
          ],
          "gender": "unknown",
          "birthDate": "1977-03-27",
          "name": [
            {
              "use": "official",
              "family": "PENSON",
              "given": [
                "HEADLEY",
                "TED"
              ],
              "prefix": [
                "MR"
              ]
            }
          ],
          "address": [
            {
              "use": "home",
              "type": "both",
              "line": [
                "10 CRECY CLOSE"
              ],
              "city": "DERBY",
              "postalCode": "DE22 3JU"
            }
          ],
          "managingOrganization" : {
            "identifier" : {
              "system" : "https://fhir.nhs.uk/Id/ods-organization-code",
              "value" : "B81001"
            }
          },
          "generalPractitioner" : [ {
            "identifier" : {
              "system" : "https://fhir.nhs.uk/Id/ods-organization-code",
              "value" : "B81001"
            }
          } ]
        },
        "fullUrl": "urn:uuid:9e9ffae9-af20-48d9-9a5d-16d3e928ec3b"
      }, 
      {
        "fullUrl": "urn:uuid:8e725e5b-6e70-44c1-99fc-61b35783fa8a",
        "resource": {
          "authoredOn": "2020-06-10T12:06:00+00:00",
          "courseOfTherapyType": {
            "coding": [
              {
                "system": "https://fhir.nhs.uk/CodeSystem/medicationrequest-course-of-therapy",
                "code": "continuous-repeat-dispensing",
                "display": "Continuous long term (repeat dispensing)"
              }
            ]
          },
          "dispenseRequest" : {
            "extension" : [ {
              "url" : "https://fhir.nhs.uk/R4/StructureDefinition/Extension-performerSiteType",
              "valueCoding" : {
                "system" : "https://fhir.nhs.uk/CodeSystem/dispensing-site-preference",
                "code" : "P1"
              }
            } ],
            "validityPeriod": {
              "start": "2020-06-10",
              "end": "2020-12-07"
            },
            "quantity": {
              "value": 1,
              "unit": "device",
              "system": "http://snomed.info/sct",
              "code": "3318711000001107"
            },
            "expectedSupplyDuration": {
              "value": 28,
              "unit": "days",
              "system": "http://unitsofmeasure.org",
              "code": "d"
            },
            "performer" : {
            "identifier" : {
              "system" : "https://fhir.nhs.uk/Id/ods-organization-code",
              "value" : "FH542"
            }
            }
          },
          "dosageInstruction": [
            {
              "text" : "10 milligram, Inject, Subcutaneous route, once weekly",
              "timing" : {
                "repeat" : {
                  "frequency" : 5,
                  "period" : 1,
                  "periodUnit" : "d",
                  "boundsDuration" : {
                    "value" : 10,
                    "unit" : "day",
                    "system" : "http://unitsofmeasure.org",
                    "code" : "d"
                  }
                }
              },
              "method" : {
                "coding" : [ {
                  "system" : "http://snomed.info/sct",
                  "code" : "422145002",
                  "display" : "Inject"
                } ]
              },
              "route" : {
                "coding" : [ {
                  "system" : "http://snomed.info/sct",
                  "code" : "34206005",
                  "display" : "Subcutaneous route"
                } ]
              },
              "doseAndRate" : [ {
                "doseQuantity" : {
                  "value" : 10,
                  "unit" : "milligram",
                  "system" : "http://unitsofmeasure.org",
                  "code" : "mg"
                }
              } ]
            }
          ],
          "extension": [
            {
              "url": "https://fhir.nhs.uk/R4/StructureDefinition/Extension-DM-prescriptionType",
              "valueCoding": {
                "code": "1001",
                "display": "Outpatient Community Prescriber - Medical Prescriber",
                "system": "https://fhir.nhs.uk/CodeSystem/prescription-type"
              }
            },
            {
              "extension": [
                {
                  "url": "numberOfRepeatPrescriptionsAllowed",
                  "valueUnsignedInt": 6
                },
                {
                  "url": "authorisationExpiryDate",
                  "valueDateTime": "2020-12-07"
                }
              ],
              "url": "https://fhir.nhs.uk/R4/StructureDefinition/Extension-UKCore-MedicationRepeatInformation"
            }
          ], 
          "groupIdentifier": {
            "extension": [
              {
                "url": "https://fhir.nhs.uk/R4/StructureDefinition/Extension-PrescriptionId",
                "valueIdentifier": {
                  "system": "https://fhir.nhs.uk/Id/prescription",
                  "value": "8e725e5b-6e70-44c1-99fc-61b35783fa8a"
                }
              }
            ],
            "system": "https://fhir.nhs.uk/Id/prescription-order-number",
            "value": "4EC2E-46C9F-87592"
          },
          "id": "8e725e5b-6e70-44c1-99fc-61b35783fa8a",
          "intent": "order",
          "medicationCodeableConcept": {
            "coding": [
              {
                "system": "http://snomed.info/sct",
                "code": "15748611000001101",
                "display": "DermaSilk round neck shirt adult female small (Espere Healthcare Ltd)"
              }
            ]
          },
          "requester": {
            "reference": "urn:uuid:13ff8136-2180-4b74-9410-e28e60d57a72"
          },
          "resourceType": "MedicationRequest",
          "identifier" : [ {
            "system" : "https://fhir.nhs.uk/Id/prescription-order-item-number",
            "value" : "8e725e5b-6e70-44c1-99fc-61b35783fa8a"
          } ],
          "status": "active",
          "category" : [ {
            "coding" : [ {
              "system" : "http://terminology.hl7.org/CodeSystem/medicationrequest-category",
              "code" : "outpatient",
              "display" : "Outpatient"
            } ]
          } ],
          "subject": {
            "reference": "urn:uuid:9e9ffae9-af20-48d9-9a5d-16d3e928ec3b"
          },
          "substitution" : {
            "allowedBoolean" : false
          }
        }
      }, 
      {
        "resource": {
          "resourceType": "Organization",
          "id": "d218fd24-11f3-478f-91aa-9956053e7969",
          "identifier": [
            {
              "system": "https://fhir.nhs.uk/Id/ods-organization-code",
              "value": "D81015"
            }
          ],
          "type": [
            {
              "coding": [
                {
                  "system": "https://fhir.nhs.uk/CodeSystem/organisation-role",
                  "code": "RO76",
                  "display": "General Medical Practice"
                }
              ]
            }
          ],
          "name": "PARSON DROVE SURGERY",
          "telecom": [
            {
              "system": "phone",
              "value": "tel:01945700223",
              "use": "work"
            }
          ],
          "address": [
            {
              "use": "work",
              "type": "both",
              "line": [
                "240 MAIN ROAD",
                "PARSON DROVE"
              ],
              "city": "WISBECH",
              "district": "CAMBRIDGESHIRE",
              "postalCode": "PE13 4JA"
            }
          ]
        },
        "fullUrl": "urn:uuid:d218fd24-11f3-478f-91aa-9956053e7969"
      }, 
      {
        "resource": {
          "resourceType": "HealthcareService",
          "id": "93f45041-d223-4ba3-974c-0e818b43bf5e",
          "identifier": [
            {
              "use" : "usual",
              "system": "https://fhir.nhs.uk/Id/ods-organization-code",
              "value": "5JK"
            }
          ],
          "active" : true,
          "providedBy" : {
            "identifier" : {
              "system" : "https://fhir.nhs.uk/Id/ods-organization-code",
              "value" : "RBA"
            }
          },
          "location" : [ {
            "reference" : "urn:uuid:c1e9dfc4-d364-4792-a9f3-6aa4c4eb546c"
          } ],
          "name": "GREATER DERBY PCT"
        },
        "fullUrl": "urn:uuid:93f45041-d223-4ba3-974c-0e818b43bf5e"
      }, 
      {
        "resource": {
          "resourceType": "Practitioner",
          "id": "681054f8-7df4-419e-ad02-fd0b68d1bdb2",
          "identifier": [
            {
              "system": "https://fhir.nhs.uk/Id/sds-user-id",
              "value": "8713353"
            },
            {
              "system": "https://fhir.hl7.org.uk/Id/gmc-number",
              "value": "4428981"
            }
          ],
          "name": [
            {
              "use": "official",
              "family": "CHANDLER",
              "given": [
                "ANDREW"
              ]
            }
          ],
          "telecom": [
            {
              "system": "phone",
              "value": "tel:01945700223",
              "use": "work"
            }
          ]
        },
        "fullUrl": "urn:uuid:681054f8-7df4-419e-ad02-fd0b68d1bdb2"
      }, 
      {
        "resource": {
          "resourceType": "PractitionerRole",
          "id": "13ff8136-2180-4b74-9410-e28e60d57a72",
          "identifier": [
            {
              "system": "https://fhir.nhs.uk/Id/sds-role-profile-id",
              "value": "100112897984"
            },
            {
              "system" : "https://fhir.hl7.org.uk/Id/nhsbsa-spurious-code",
              "value" : "612345"
            }
          ],
          "code": [
            {
              "coding": [
                {
                  "system": "https://fhir.nhs.uk/R4/CodeSystem/UKCore-SDSJobRoleName",
                  "code": "R0260",
                  "display": "General Medical Practitioner"
                }
              ]
            }
          ],
          "practitioner": {
            "reference": "urn:uuid:681054f8-7df4-419e-ad02-fd0b68d1bdb2"
          },
          "organization": {
            "reference": "urn:uuid:d218fd24-11f3-478f-91aa-9956053e7969"
          },
          "healthcareService" : [ {
            "reference" : "urn:uuid:93f45041-d223-4ba3-974c-0e818b43bf5e",
            "display" : "GREATER DERBY PCT"
          } ]
        },
        "fullUrl": "urn:uuid:13ff8136-2180-4b74-9410-e28e60d57a72"
      }, 
      {
        "fullUrl": "urn:uuid:c1e9dfc4-d364-4792-a9f3-6aa4c4eb546c",
        "resource": {
          "resourceType": "Location",
          "id": "c1e9dfc4-d364-4792-a9f3-6aa4c4eb546c",
          "identifier": [
            {
              "value": "10008800708"
            }
          ],
          "status": "active",
          "mode": "instance",
          "address": {
            "use": "work",
            "line": [
              "MUSGROVE PARK HOSPITAL"
            ],
            "city": "TAUNTON",
            "postalCode": "TA1 5DA"
          }
        }
      }]
  }
  