<Bundle xmlns="http://hl7.org/fhir">
    <id value="d0a503d2-6809-4055-be82-308183e64734" />
    <type value="message" />
    <timestamp value="2021-05-07T16:15:32Z" />
    <!--    Message Header    -->
    <entry>
        <fullUrl value="urn:message-header-167434" />
        <resource>
            <MessageHeader>
                <id value="urn:message-header-167434" />
                <text>
                    <status value="generated" />
                    <div xmlns="http://www.w3.org/1999/xhtml"><p>The quick brown fox jumps over the lazy dog</p></div>
                </text>
                <eventCoding>
                    <system value="http://hl7.org/fhir/message-events" />
                    <code value="individual-requirements-1" />
                    <display value="Individual Requirements" />
                </eventCoding>
                <source>
                    <endpoint value="urn:nhs-uk:addressing:ods:T48NT" />
                </source>
                <focus>
                    <reference value="urn:med-req-1023938" />
                </focus>
            </MessageHeader>
        </resource>
    </entry>
    <!-- Patient associated with the encounter. -->
    <entry>
        <fullUrl value="urn:patient-011223344" />
        <resource>
            <Patient>
                <id value="urn:patient-011223344" />
                <identifier>
                    <system value="https://fhir.nhs.uk/Id/nhs-number" />
                    <value value="2377954310" />
                </identifier>
                <name>
                    <use value="official" />
                    <text value="Mrs Anne Teak" />
                    <family value="Teak" />
                    <given value="Anne" />
                    <prefix value="Mrs" />
                </name>
                <gender value="female" />
                <birthDate value="1956-02-04" />
            </Patient>
        </resource>
    </entry>
    <!-- Prescribing clinician associated with the encounter.  -->
    <entry>
        <fullUrl value="urn:staff-1112" />
        <resource>
            <Practitioner>
                <id value="urn:staff-1112" />
                <name>
                    <text value="Dr Maikeu Well" />
                    <family value="Well" />
                    <given value="Maikeu" />
                    <prefix value="Dr" />
                </name>
                <qualification>
                    <code>
                        <coding>
                            <system value="https://fhir.hl7.org.uk/Id/gmc-number" />
                            <code value="2145879" />
                            <display value="General Medical Council" />
                        </coding>
                    </code>
                </qualification>
            </Practitioner>
        </resource>
    </entry>
    <!-- Medication prescribed  -->
    <entry>
        <fullUrl value="urn:medication-38769117" />
        <resource>
            <Medication>
                <id value="urn:medication-38769117" />
                <code>
                    <coding>
                        <system value="http://snomed.info/sct" />
                        <code value="27658006" />
                        <display value="Amoxicillin" />
                    </coding>
                </code>
            </Medication>
        </resource>
    </entry>
    <!--  Medication Request  -->
    <entry>
        <fullUrl value="urn:med-req-1023938" />
        <resource>
            <MedicationRequest>
                <id value="urn:med-req-1023938" />
                <status value="active" />
                <intent value="order" />
                <category>
                    <coding>
                        <system value="http://hl7.org/fhir/medication-request-category" />
                        <code value="inpatient" />
                        <display value="inpatient" />
                    </coding>
                </category>
                <medicationReference>
                    <reference value="urn:medication-38769117" />
                    <display value="Amoxicillin" />
                </medicationReference>
                <subject>
                    <reference value="urn:patient-011223344" />
                    <display value="Mrs Anne Teak" />
                </subject>
                <authoredOn value="2020-05-15T15:00:00Z" />
                <requester>
                    <reference value="urn:staff-1112" />
                    <display value="Dr Maikeu Well" />
                </requester>
                <recorder>
                    <reference value="urn:staff-1112" />
                    <display value="Dr Maikeu Well" />
                </recorder>
                <dosageInstruction>
                    <timing>
                        <repeat>
                            <frequency value="3" />
                            <period value="1" />
                            <periodUnit value="d" />
                        </repeat>
                    </timing>
                    <route>
                        <coding>
                            <system value="http://snomed.info/sct" />
                            <code value="26643006" />
                            <display value="oral" />
                        </coding>
                    </route>
                    <doseAndRate>
                        <doseQuantity>
                            <value value="500" />
                            <unit value="milligram" />
                            <system value="http://unitsofmeasure.org" />
                            <code value="mg" />
                        </doseQuantity>
                    </doseAndRate>
                </dosageInstruction>
                <substitution>
                    <allowedBoolean value="false" />
                </substitution>
            </MedicationRequest>
        </resource>
    </entry>
</Bundle>