<MedicationRequest xmlns="http://hl7.org/fhir">
    <text>
        <status value="generated" />
        <div xmlns="http://www.w3.org/1999/xhtml">
        <span >Aspirin 300mg dispersible tablets </span>
    </div>
    </text>
    <contained>
        <Medication xmlns="http://hl7.org/fhir">
            <id value="2" />
            <code>
                <coding>
                    <system value="http://snomed.info/sct" />
                    <code value="329526003" />
                    <display value="Aspirin 300mg dispersible tablet" />
                </coding>
                <text value="Aspirin 300mg dispersible tablets" />
            </code>
            <form>
                <coding>
                    <system value="http://snomed.info/sct" />
                    <code value="35366911000001101" />
                    <display value="Dispersible tablet" />
                </coding>
                <text value="Dispersible tablet" />
            </form>
        </Medication>
    </contained>
    <contained>
        <Patient xmlns="http://hl7.org/fhir">
            <id value="3" />
            <identifier>
                <system value="https://ThinkEhr/Domain" />
                <value value="default" />
            </identifier>
            <identifier>
                <system value="https://fhir.hl7.org.uk/taunton/PAS" />
                <value value="1007" />
            </identifier>
            <identifier>
                <system value="https://fhir.hl7.org.uk/taunton/MRN" />
                <value value="1007" />
            </identifier>
            <identifier>
                <system value="https://fhir.nhs.uk/Id/nhs-number" />
                <value value="1007" />
            </identifier>
            <name>
                <use value="anonymous" />
                <family value="Unknown" />
            </name>
        </Patient>
    </contained>
    <contained>
        <Encounter xmlns="http://hl7.org/fhir">
            <id value="4" />
            <identifier>
                <value value="10071" />
            </identifier>
            <status value="unknown"/>
            <location>
                <location>
                    <display value="wordsworth" />
                </location>
            </location>
        </Encounter>
    </contained>
    <identifier>
        <system value="urn:uuid"/>
        <value value="9a9e4e11-5596-47bc-9376-21bf9d451905" />
    </identifier>
    <intent value="instance-order" />
    <category>
        <coding>
            <system value="http://hl7.org/fhir/medication-request-category" />
            <code value="inpatient" />
            <display value="Inpatient" />
        </coding>
        <text value="Inpatient" />
    </category>
    <medicationReference>
        <reference value="#2" />
    </medicationReference>
    <subject>
        <reference value="#3" />
    </subject>
    <context>
        <reference value="#4" />
    </context>
    <authoredOn value="2020-07-09T12:02:49+02:00" />
    <dosageInstruction>
        <additionalInstruction>
            <text value="test c" />
        </additionalInstruction>
        <timing>
            <repeat>
                <frequency value="3" />
                <period value="1" />
                <periodUnit value="d" />
                <timeOfDay value="08:00:00" />
                <timeOfDay value="13:00:00" />
                <timeOfDay value="20:00:00" />
            </repeat>
        </timing>
        <route>
            <coding>
                <system value="http://snomed.info/sct" />
                <code value="26643006" />
                <display value="Oral Use" />
            </coding>
            <text value="Oral" />
        </route>
        <doseQuantity>
            <value value="300.0" />
            <unit value="mg" />
            <system value="http://unitsofmeasure.org" />
            <code value="mg" />
        </doseQuantity>
    </dosageInstruction>
</MedicationRequest>