{
    "resourceType": "Bundle",
    "id": "2ED97439-1078-E46F-E040-007F01001C14",
    "identifier": {
        "system": "https://tools.ietf.org/html/rfc4122",
        "value": "2ED97439-1078-E46F-E040-007F01001C14"
    },
    "type": "message",
    "entry": [
        {
            "fullUrl": "urn:uuid:2ED97439-1078-E46F-E040-007F01001C14",
            "resource": {
                "resourceType": "MessageHeader",
                "eventCoding": {
                    "system": "https://fhir.nhs.uk/CodeSystem/message-event",
                    "code": "dispense-claim",
                    "display": "Dispense Notification Claim"
                },
                "destination": [
                    {
                        "endpoint": "https://sandbox.api.service.nhs.uk/electronic-prescriptions/$post-message",
                        "receiver": {
                            "identifier": {
                                "system": "https://fhir.nhs.uk/Id/ods-organization-code",
                                "value": "X26"
                            },
                            "display": "NHS Digital"
                        }
                    }
                ],
                "sender": {
                    "identifier": {
                        "system": "https://fhir.nhs.uk/Id/ods-organization-code",
                        "value": "FM096a"
                    },
                    "display": "34-36 LOUTH ROAD"
                },
                "source": {
                    "name": "The Pharmacy System",
                    "endpoint": "urn:nhs-uk:addressing:ods:FM096a"
                },
                "response": {
                    "identifier": "306AFD98-83AD-11DB-A9CC-3F9E62DFF7A2",
                    "code": "ok"
                },
                "focus": [
                    {
                        "reference": "urn:uuid:58338C37-00E5-A577-E040-A8C016024E6D"
                    },
                    {
                        "reference": "urn:uuid:58338C37-00E6-A577-E040-A8C016024E6D"
                    },
                    {
                        "reference": "urn:uuid:58338C37-00E7-A577-E040-A8C016024E6D"
                    }
                ]
            }
        },
        {
            "fullUrl": "urn:uuid:58338C37-00E5-A577-E040-A8C016024E6D",
            "resource": {
                "resourceType": "Claim",
                "identifier": [
                    {
                        "system": "https://fhir.nhs.uk/Id/prescription-dispense-item-number",
                        "value": "58338C37-00E5-A577-E040-A8C016024E6D"
                    }
                ],
                "status": "active",
                "type": {
                    "coding": [
                        {
                            "system": "http://terminology.hl7.org/CodeSystem/claim-type",
                            "code": "pharmacy",
                            "display": "Pharmacy"
                        }
                    ]
                },
                "use": "claim",
                "patient": {
                    "identifier": {
                        "system": "https://fhir.nhs.uk/Id/nhs-number",
                        "value": "2300992742"
                    }
                },
                "created": "2011-10-25T13:45:35+00:00",
                "provider": {
                    "identifier": {
                        "system": "https://fhir.nhs.uk/Id/sds-role-profile-id",
                        "value": "884562163557"
                    },
                    "display": "dummy full name"
                },
                "priority": {
                    "coding": [
                        {
                            "system": "http://terminology.hl7.org/CodeSystem/processpriority",
                            "code": "normal"
                        }
                    ]
                },
                "prescription": {
                    "extension": [
                        {
                            "url": "https://fhir.nhs.uk/StructureDefinition/Extension-DM-GroupIdentifier",
                            "extension": [
                                {
                                    "url": "shortForm",
                                    "valueIdentifier": {
                                        "system": "https://fhir.nhs.uk/Id/prescription-order-number",
                                        "value": "111467-A82003-09881S"
                                    }
                                },
                                {
                                    "url": "UUID",
                                    "valueIdentifier": {
                                        "system": "https://fhir.nhs.uk/Id/prescription",
                                        "value": "1DE59600-86B1-11DB-84BA-2B9204F7A7C9"
                                    }
                                }
                            ]
                        }
                    ],
                    "identifier": {
                        "system": "https://fhir.nhs.uk/Id/prescription-order-item-number",
                        "value": "30AE47FA-83AD-11DB-A9CC-3F9E62DFF7A3"
                    },
                    "display": "The original prescription Not mapped"
                },
                "payee": {
                    "type": {
                        "coding": [
                            {
                                "system": "http://terminology.hl7.org/CodeSystem/payeetype",
                                "code": "provider",
                                "display": "Provider"
                            }
                        ]
                    },
                    "party": {
                        "identifier": {
                            "system": "https://fhir.nhs.uk/Id/ods-organization-code",
                            "value": "FM096a"
                        },
                        "display": "34-36 LOUTH ROAD"
                    }
                },
                "insurance": [
                    {
                        "sequence": 1,
                        "focal": true,
                        "coverage": {
                            "identifier": {
                                "system": "https://fhir.nhs.uk/Id/ods-organization-code",
                                "value": "T1450"
                            },
                            "display": "NHS BUSINESS SERVICES AUTHORITY"
                        }
                    }
                ],
                "item": [
                    {
                        "extension": [
                            {
                                "url": "https://fhir.nhs.uk/StructureDefinition/Extension-DM-SuppliedItemIdentifier",
                                "valueIdentifier": {
                                    "system": "https://fhir.nhs.uk/Id/claim-sequence-identifier",
                                    "value": "58338C37-00E5-A577-E040-A8C016024E6D"
                                }
                            },
                            {
                                "url": "https://fhir.nhs.uk/StructureDefinition/Extension-EPS-TaskBusinessStatus",
                                "valueCoding": {
                                    "system": "https://fhir.nhs.uk/CodeSystem/EPS-task-business-status",
                                    "code": "0006",
                                    "display": "Dispensed"
                                }
                            }
                        ],
                        "sequence": 1,
                        "productOrService": {
                            "coding": [
                                {
                                    "system": "http://snomed.info/sct",
                                    "code": "373784005",
                                    "display": "Administration of therapeutic substance"
                                }
                            ]
                        },
                        "modifier": [
                            {
                                "coding": [
                                    {
                                        "system": "https://fhir.nhs.uk/CodeSystem/medicationdispense-type",
                                        "code": "0001",
                                        "display": "Item fully dispensed"
                                    }
                                ]
                            }
                        ],
                        "programCode": [
                            {
                                "coding": [
                                    {
                                        "system": "https://fhir.nhs.uk/CodeSystem/prescription-charge-exemption",
                                        "code": "0001",
                                        "display": "Patient has paid appropriate charges"
                                    }
                                ]
                            }
                        ],
                        "quantity": {
                            "value": 1,
                            "unit": "vial",
                            "system": "http://snomed.info/sct",
                            "code": "3319611000001107"
                        },
                        "detail": [
                            {
                                "sequence": 1,
                                "productOrService": {
                                    "coding": [
                                        {
                                            "system": "http://snomed.info/sct",
                                            "code": "4627811000001103",
                                            "display": "Flolan 1.5mg powder and solvent for solution for injection vials (GlaxoSmithKline) 1 vial"
                                        }
                                    ]
                                },
                                "quantity": {
                                    "value": 1,
                                    "unit": "vial",
                                    "system": "http://snomed.info/sct",
                                    "code": "3319611000001107"
                                },
                                "programCode": [
                                    {
                                        "coding": [
                                            {
                                                "system": "https://fhir.nhs.uk/CodeSystem/medicationdispense-endorsement",
                                                "code": "NDEC",
                                                "display": "No Dispenser Endorsement Code"
                                            }
                                        ]
                                    },
                                    {
                                        "coding": [
                                            {
                                                "system": "https://fhir.nhs.uk/CodeSystem/DM-prescription-charge",
                                                "code": "not-paid",
                                                "display": "Not Paid"
                                            }
                                        ]
                                    }
                                ]
                            }
                        ]
                    }
                ]
            }
        },
        {
            "fullUrl": "urn:uuid:58338C37-00E6-A577-E040-A8C016024E6D",
            "resource": {
                "resourceType": "Claim",
                "identifier": [
                    {
                        "system": "https://fhir.nhs.uk/Id/prescription-dispense-item-number",
                        "value": "58338C37-00E6-A577-E040-A8C016024E6D"
                    }
                ],
                "status": "active",
                "type": {
                    "coding": [
                        {
                            "system": "http://terminology.hl7.org/CodeSystem/claim-type",
                            "code": "pharmacy",
                            "display": "Pharmacy"
                        }
                    ]
                },
                "use": "claim",
                "patient": {
                    "identifier": {
                        "system": "https://fhir.nhs.uk/Id/nhs-number",
                        "value": "2300992742"
                    }
                },
                "created": "2011-10-25T13:45:35+00:00",
                "provider": {
                    "identifier": {
                        "system": "https://fhir.nhs.uk/Id/sds-role-profile-id",
                        "value": "884562163557"
                    },
                    "display": "dummy full name"
                },
                "priority": {
                    "coding": [
                        {
                            "system": "http://terminology.hl7.org/CodeSystem/processpriority",
                            "code": "normal"
                        }
                    ]
                },
                "prescription": {
                    "extension": [
                        {
                            "url": "https://fhir.nhs.uk/StructureDefinition/Extension-DM-GroupIdentifier",
                            "extension": [
                                {
                                    "url": "shortForm",
                                    "valueIdentifier": {
                                        "system": "https://fhir.nhs.uk/Id/prescription-order-number",
                                        "value": "111467-A82003-09881S"
                                    }
                                },
                                {
                                    "url": "UUID",
                                    "valueIdentifier": {
                                        "system": "https://fhir.nhs.uk/Id/prescription",
                                        "value": "1DE59600-86B1-11DB-84BA-2B9204F7A7C9"
                                    }
                                }
                            ]
                        }
                    ],
                    "identifier": {
                        "system": "https://fhir.nhs.uk/Id/prescription-order-item-number",
                        "value": "30AE47FA-83AD-11DB-A9CC-3F9E62DFF7A3"
                    },
                    "display": "The original prescription Not mapped - Note identifier above is duplicated"
                },
                "payee": {
                    "type": {
                        "coding": [
                            {
                                "system": "http://terminology.hl7.org/CodeSystem/payeetype",
                                "code": "provider",
                                "display": "Provider"
                            }
                        ]
                    },
                    "party": {
                        "identifier": {
                            "system": "https://fhir.nhs.uk/Id/ods-organization-code",
                            "value": "FM096a"
                        },
                        "display": "34-36 LOUTH ROAD"
                    }
                },
                "insurance": [
                    {
                        "sequence": 1,
                        "focal": true,
                        "coverage": {
                            "identifier": {
                                "system": "https://fhir.nhs.uk/Id/ods-organization-code",
                                "value": "T1450"
                            },
                            "display": "NHS BUSINESS SERVICES AUTHORITY"
                        }
                    }
                ],
                "item": [
                    {
                        "extension": [
                            {
                                "url": "https://fhir.nhs.uk/StructureDefinition/Extension-DM-SuppliedItemIdentifier",
                                "valueIdentifier": {
                                    "system": "https://fhir.nhs.uk/Id/claim-sequence-identifier",
                                    "value": "58338C37-00E5-A577-E040-A8C016024E6D"
                                }
                            },
                            {
                                "url": "https://fhir.nhs.uk/StructureDefinition/Extension-EPS-TaskBusinessStatus",
                                "valueCoding": {
                                    "system": "https://fhir.nhs.uk/CodeSystem/EPS-task-business-status",
                                    "code": "0006",
                                    "display": "Dispensed"
                                }
                            }
                        ],
                        "sequence": 1,
                        "productOrService": {
                            "coding": [
                                {
                                    "system": "http://snomed.info/sct",
                                    "code": "373784005",
                                    "display": "Administration of therapeutic substance"
                                }
                            ]
                        },
                        "modifier": [
                            {
                                "coding": [
                                    {
                                        "system": "https://fhir.nhs.uk/CodeSystem/medicationdispense-type",
                                        "code": "0001",
                                        "display": "Item fully dispensed"
                                    }
                                ]
                            }
                        ],
                        "programCode": [
                            {
                                "coding": [
                                    {
                                        "system": "https://fhir.nhs.uk/CodeSystem/prescription-charge-exemption",
                                        "code": "0001",
                                        "display": "Patient has paid appropriate charges"
                                    }
                                ]
                            }
                        ],
                        "quantity": {
                            "value": 1,
                            "unit": "vial",
                            "system": "http://snomed.info/sct",
                            "code": "3319611000001107"
                        },
                        "detail": [
                            {
                                "sequence": 1,
                                "productOrService": {
                                    "coding": [
                                        {
                                            "system": "http://snomed.info/sct",
                                            "code": "4627811000001103",
                                            "display": "Flolan 1.5mg powder and solvent for solution for injection vials (GlaxoSmithKline) 1 vial"
                                        }
                                    ]
                                },
                                "quantity": {
                                    "value": 1,
                                    "unit": "vial",
                                    "system": "http://snomed.info/sct",
                                    "code": "3319611000001107"
                                },
                                "programCode": [
                                    {
                                        "coding": [
                                            {
                                                "system": "https://fhir.nhs.uk/CodeSystem/medicationdispense-endorsement",
                                                "code": "BB",
                                                "display": "Broken Bulk"
                                            }
                                        ]
                                    },
                                    {
                                        "coding": [
                                            {
                                                "system": "https://fhir.nhs.uk/CodeSystem/DM-prescription-charge",
                                                "code": "not-paid",
                                                "display": "Not Paid"
                                            }
                                        ]
                                    }
                                ]
                            }
                        ]
                    }
                ]
            }
        },
        {
            "fullUrl": "urn:uuid:58338C37-00E7-A577-E040-A8C016024E6D",
            "resource": {
                "resourceType": "Claim",
                "identifier": [
                    {
                        "system": "https://fhir.nhs.uk/Id/prescription-dispense-item-number",
                        "value": "58338C37-00E7-A577-E040-A8C016024E6D"
                    }
                ],
                "status": "active",
                "type": {
                    "coding": [
                        {
                            "system": "http://terminology.hl7.org/CodeSystem/claim-type",
                            "code": "pharmacy",
                            "display": "Pharmacy"
                        }
                    ]
                },
                "use": "claim",
                "patient": {
                    "identifier": {
                        "system": "https://fhir.nhs.uk/Id/nhs-number",
                        "value": "2300992742"
                    }
                },
                "created": "2011-10-25T13:45:35+00:00",
                "provider": {
                    "identifier": {
                        "system": "https://fhir.nhs.uk/Id/sds-role-profile-id",
                        "value": "884562163557"
                    },
                    "display": "dummy full name"
                },
                "priority": {
                    "coding": [
                        {
                            "system": "http://terminology.hl7.org/CodeSystem/processpriority",
                            "code": "normal"
                        }
                    ]
                },
                "prescription": {
                    "extension": [
                        {
                            "url": "https://fhir.nhs.uk/StructureDefinition/Extension-DM-GroupIdentifier",
                            "extension": [
                                {
                                    "url": "shortForm",
                                    "valueIdentifier": {
                                        "system": "https://fhir.nhs.uk/Id/prescription-order-number",
                                        "value": "111467-A82003-09881S"
                                    }
                                },
                                {
                                    "url": "UUID",
                                    "valueIdentifier": {
                                        "system": "https://fhir.nhs.uk/Id/prescription",
                                        "value": "1DE59600-86B1-11DB-84BA-2B9204F7A7C9"
                                    }
                                }
                            ]
                        }
                    ],
                    "identifier": {
                        "system": "https://fhir.nhs.uk/Id/prescription-order-item-number",
                        "value": "30AE47FA-83AD-11DB-A9CC-3F9E62DFF7A3"
                    },
                    "display": "The original prescription Not mapped"
                },
                "payee": {
                    "type": {
                        "coding": [
                            {
                                "system": "http://terminology.hl7.org/CodeSystem/payeetype",
                                "code": "provider",
                                "display": "Provider"
                            }
                        ]
                    },
                    "party": {
                        "identifier": {
                            "system": "https://fhir.nhs.uk/Id/ods-organization-code",
                            "value": "FM096a"
                        },
                        "display": "34-36 LOUTH ROAD"
                    }
                },
                "insurance": [
                    {
                        "sequence": 1,
                        "focal": true,
                        "coverage": {
                            "identifier": {
                                "system": "https://fhir.nhs.uk/Id/ods-organization-code",
                                "value": "T1450"
                            },
                            "display": "NHS BUSINESS SERVICES AUTHORITY"
                        }
                    }
                ],
                "item": [
                    {
                        "extension": [
                            {
                                "url": "https://fhir.nhs.uk/StructureDefinition/Extension-DM-SuppliedItemIdentifier",
                                "valueIdentifier": {
                                    "system": "https://fhir.nhs.uk/Id/claim-sequence-identifier",
                                    "value": "58338C37-00E5-A577-E040-A8C016024E6D"
                                }
                            },
                            {
                                "url": "https://fhir.nhs.uk/StructureDefinition/Extension-EPS-TaskBusinessStatus",
                                "valueCoding": {
                                    "system": "https://fhir.nhs.uk/CodeSystem/EPS-task-business-status",
                                    "code": "0006",
                                    "display": "Dispensed"
                                }
                            }
                        ],
                        "sequence": 1,
                        "productOrService": {
                            "coding": [
                                {
                                    "system": "http://snomed.info/sct",
                                    "code": "373784005",
                                    "display": "Administration of therapeutic substance"
                                }
                            ]
                        },
                        "modifier": [
                            {
                                "coding": [
                                    {
                                        "system": "https://fhir.nhs.uk/CodeSystem/medicationdispense-type",
                                        "code": "0001",
                                        "display": "Item fully dispensed"
                                    }
                                ]
                            }
                        ],
                        "programCode": [
                            {
                                "coding": [
                                    {
                                        "system": "https://fhir.nhs.uk/CodeSystem/prescription-charge-exemption",
                                        "code": "0001",
                                        "display": "Patient has paid appropriate charges"
                                    }
                                ]
                            }
                        ],
                        "quantity": {
                            "value": 1,
                            "unit": "vial",
                            "system": "http://snomed.info/sct",
                            "code": "3319611000001107"
                        },
                        "detail": [
                            {
                                "sequence": 1,
                                "productOrService": {
                                    "coding": [
                                        {
                                            "system": "http://snomed.info/sct",
                                            "code": "4627811000001103",
                                            "display": "Flolan 1.5mg powder and solvent for solution for injection vials (GlaxoSmithKline) 1 vial"
                                        }
                                    ]
                                },
                                "quantity": {
                                    "value": 1,
                                    "unit": "vial",
                                    "system": "http://snomed.info/sct",
                                    "code": "3319611000001107"
                                },
                                "programCode": [
                                    {
                                        "text": "Flolan 1.5mg pdr & solv for soln for inj vials,Test additional information [AI is no longer a valid code]"
                                    },
                                    {
                                        "coding": [
                                            {
                                                "system": "https://fhir.nhs.uk/CodeSystem/DM-prescription-charge",
                                                "code": "not-paid",
                                                "display": "Not Paid"
                                            }
                                        ]
                                    }
                                ]
                            }
                        ]
                    }
                ]
            }
        }
    ]
}