<!--This xml example is for illustrative purposes only and has not been clinically verified.-->
<Bundle xmlns="http://hl7.org/fhir">
    <id value="40e225a0-8f48-11e8-b568-0800200c9a66"/>
    <meta>
        <lastUpdated value="2018-05-09T10:00:00+00:00"/>
        <profile value="https://fhir.nhs.uk/STU3/StructureDefinition/ITK-Document-Bundle-1"/>
    </meta>
    <identifier>
        <system value="https://tools.ietf.org/html/rfc4122"/>
        <value value="739aeb30-8f48-11e8-b568-0800200c9a66"/>
    </identifier>
    <type value="document"/>
    <!--Pharmacy Immunizations Notification Document-->
    <entry>
        <fullUrl value="urn:uuid:979a4ef0-8b5a-11e8-b568-0800200c9a66"/>
        <resource>
            <!--A resource carrying a set of healthcare-related information about the patient-->
            <Composition xmlns="http://hl7.org/fhir">
                <id value="979a4ef0-8b5a-11e8-b568-0800200c9a66"/>
                <meta>
                    <profile value="https://fhir.nhs.uk/STU3/StructureDefinition/CareConnect-ITK-DM-Immunization-Composition-1"/>
                </meta>
                <!-- Extension to carry details of the Correspondence Care Setting Type. -->
                <extension url="https://fhir.nhs.uk/STU3/StructureDefinition/Extension-CareSettingType-1">
                    <valueCodeableConcept>
                        <coding>
                            <system value="http://snomed.info/sct"/>
                            <code value="310080006"/>
                            <display value="Pharmacy service"/>
                        </coding>
                    </valueCodeableConcept>
                </extension>
                <identifier>
                    <system value="https://tools.ietf.org/html/rfc4122"/>
                    <value value="86943780-8b5d-11e8-b568-0800200c9a66"/>
                </identifier>
                <!--The workflow/clinical status of this composition. The status is a marker for the clinical standing of the document.-->
                <status value="final"/>
                <type>
                    <!--Digital Medicines document type-->
                    <coding>
                        <system value="http://snomed.info/sct"/>
                        <code value="41000179103"/>
                        <display value="Immunisation record"/>
                    </coding>
                </type>
                <!--Reference to the patient subject of the Composition-->
                <subject>
                    <reference value="urn:uuid:9589fb37-87a2-48d8-968f-b371429209e3"/>
                </subject>
                <!--Reference to the clinical encounter or type of care this documentation is associated with.-->
                <!--The composition editing time, when the composition was last logically changed by the author.-->
                <date value="2018-05-09T10:00:00+00:00"/>
                <!--Identifies who is responsible for the information in the composition, 
not necessarily who typed it in-->
                <author>
                    <identifier>
                        <system value="https://fhir.hl7.org.uk/Id/gphc-number"/>
                        <value value="2145879"/>
                    </identifier>
                    <display value="SMITH, Eric (Mr)"/>
                </author>
                <title value="Overtown Pharmacy 118 Immunization Record"/>
                <!--Identifies the organization responsible for ongoing maintenance of and access 
to the composition/document information.-->
                <custodian>
                    <identifier>
                        <system value="https://fhir.nhs.uk/Id/ods-organization-code"/>
                        <value value="FA000"/>
                    </identifier>
                    <display value="Overtown Pharmacy"/>
                </custodian>

                <!-- GP Practice-->
                <section>
                    <title value="GP practice"/>
                    <code>
                        <coding>
                            <system value="http://snomed.info/sct"/>
                            <code value="886711000000101"/>
                            <display value="GP practice"/>
                        </coding>
                    </code>
                    <text>
                        <status value="additional"/>
                        <div xmlns="http://www.w3.org/1999/xhtml">
                            <table width="100%">
                                <tbody>
                                    <tr>
                                        <th>GP name</th>
                                        <td>
                                            <p>Prefix: Dr</p>
                                            <p>Given Name: Paul</p>
                                            <p>Family Name: Rastall</p>
                                        </td>
                                    </tr>
                                    <tr>
                                        <th>GP practice identifier</th>
                                        <td>
                                            <p>ODS Organization Code:GP123456</p>
                                        </td>
                                    </tr>
                                    <tr>
                                        <th>GP practice details</th>
                                        <td>
                                            <p>Name: MGP Medical Centre</p>
                                            <p>Address:</p>
                                            <p>Address Line: 1 MGP House, Overtown</p>
                                            <p>City: Leeds</p>
                                            <p>Post Code: LS21 7PA</p>
                                        </td>
                                    </tr>
                                </tbody>
                            </table>
                        </div>
                    </text>
                    <!--Reference to the Organisation entry as the source of information for this section-->
                    <entry>
                        <reference value="urn:uuid:94ca030c-03aa-4dae-8270-c2de2b7907ef"/>
                    </entry>
                </section>
                <!--Immunizations-->
                <section>
                    <title value="Immunizations"/>
                    <code>
                        <coding>
                            <system value="http://snomed.info/sct"/>
                            <code value="1102181000000102"/>
                            <display value="Immunisations"/>
                        </coding>
                    </code>
                    <text>
                        <status value="additional"/>
                        <div xmlns="http://www.w3.org/1999/xhtml">
                            <table width="100%">
                                <tbody>
                                    <tr>
                                        <td>Vaccine product: Seasonal influenza vaccination given by pharmacist.</td>
                                        <td>Serialisation code: xyz991</td>
                                        <td>Site: Upper right arm</td>
                                        <td>Route: Subcutaneous route</td>
                                        <td>Indication: Patient requested procedure.</td>
                                    </tr>
                                    <tr>
                                        <td>Administered by: Mr Eric Smith</td>
                                        <td>GPhC identifier: 2145879</td>
                                        <td>Date Time: 9-May-2018 10:00</td>
                                        <td>Route: Subcutaneous route</td>
                                    </tr>
                                </tbody>
                            </table>
                        </div>
                    </text>
                    <entry>
                        <reference value="urn:uuid:631ec8d3-6341-4c9e-b2a1-131af62718f2"/>
                    </entry>
                </section>
                <!-- Patient demographics-->
                <section>
                    <title value="Patient demographics"/>
                    <code>
                        <coding>
                            <system value="http://snomed.info/sct"/>
                            <code value="886731000000109"/>
                            <display value="Patient demographics"/>
                        </coding>
                    </code>
                    <text>
                        <status value="additional"/>
                        <div xmlns="http://www.w3.org/1999/xhtml">
                            <table width="100%">
                                <tbody>
                                    <tr>
                                        <th>Patient name</th>
                                        <td>
                                            <p>Prefix: Mrs</p>
                                            <p>Given Name: Julie</p>
                                            <p>Family Name: Jones</p>
                                        </td>
                                    </tr>
                                    <tr>
                                        <th>Date of birth</th>
                                        <td>4 May 1959</td>
                                    </tr>
                                    <tr>
                                        <th>Gender</th>
                                        <td>Female</td>
                                    </tr>
                                    <tr>
                                        <th>NHS number</th>
                                        <td>3478526985</td>
                                    </tr>
                                    <tr>
                                        <th>Patient address</th>
                                        <td>
                                            <p>Address Line: 22, Brightside Crescent, Overtown</p>
                                            <p>City: Leeds</p>
                                            <p>Post Code: LS10 4YU</p>
                                        </td>
                                    </tr>
                                    <tr>
                                        <th>Relevant contacts</th>
                                        <td>Name: Philip Jones <p>Relationship: Next of kin</p>
                                            <p>Contact details: Tel. 01138698975 Email. pjones@mymail.com</p>
                                        </td>
                                    </tr>
                                </tbody>
                            </table>
                        </div>
                    </text>
                    <!--reference to further information carried in the patient resource-->
                    <entry>
                        <reference value="urn:uuid:9589fb37-87a2-48d8-968f-b371429209e3"/>
                    </entry>
                </section>
            </Composition>
        </resource>
    </entry>
    <!--Pharmacy associated with the encounter. -->
    <entry>
        <fullUrl value="urn:uuid:09cf4c3d-2ba0-40dc-a633-27fca0151a91"/>
        <resource>
            <Organization xmlns="http://hl7.org/fhir">
                <id value="09cf4c3d-2ba0-40dc-a633-27fca0151a91"/>
                <meta>
                    <profile value="https://fhir.hl7.org.uk/STU3/StructureDefinition/CareConnect-Organization-1"/>
                </meta>
                <identifier>
                    <system value="https://fhir.nhs.uk/Id/ods-organization-code"/>
                    <value value="FA000"/>
                </identifier>
                <name value="Overtown Pharmacy"/>
                <telecom>
                    <system value="phone"/>
                    <value value="01134875516"/>
                </telecom>
                <telecom>
                    <system value="email"/>
                    <value value="overtonpharmacy118@mymail.com"/>
                </telecom>
                <address>
                    <line value="1 High Street, Overtown"/>
                    <city value="Leeds"/>
                    <postalCode value="LS1 9AM"/>
                </address>
            </Organization>
        </resource>
    </entry>
    <!--Patient's registered GP Practice.-->
    <entry>
        <fullUrl value="urn:uuid:94ca030c-03aa-4dae-8270-c2de2b7907ef"/>
        <resource>
            <Organization xmlns="http://hl7.org/fhir">
                <id value="94ca030c-03aa-4dae-8270-c2de2b7907ef"/>
                <meta>
                    <profile value="https://fhir.hl7.org.uk/STU3/StructureDefinition/CareConnect-Organization-1"/>
                </meta>
                <identifier>
                    <system value="https://fhir.nhs.uk/Id/ods-organization-code"/>
                    <value value="GP123456"/>
                </identifier>
                <name value="MGP Medical Centre"/>
                <address>
                    <line value="1 MGP House, Overtown"/>
                    <city value="Leeds"/>
                    <postalCode value="LS21 7PA"/>
                </address>
            </Organization>
        </resource>
    </entry>
    <!--Patient associated with the encounter.-->
    <entry>
        <fullUrl value="urn:uuid:9589fb37-87a2-48d8-968f-b371429209e3"/>
        <resource>
            <Patient xmlns="http://hl7.org/fhir">
                <id value="9589fb37-87a2-48d8-968f-b371429209e3"/>
                <meta>
                    <profile value="https://fhir.hl7.org.uk/STU3/StructureDefinition/CareConnect-Patient-1"/>
                </meta>
                <identifier>
                    <extension url="https://fhir.hl7.org.uk/STU3/StructureDefinition/Extension-CareConnect-NHSNumberVerificationStatus-1">
                        <valueCodeableConcept>
                            <coding>
                                <system value="https://fhir.hl7.org.uk/STU3/CodeSystem/CareConnect-NHSNumberVerificationStatus-1"/>
                                <code value="01"/>
                                <display value="Number present and verified"/>
                            </coding>
                        </valueCodeableConcept>
                    </extension>
                    <system value="https://fhir.nhs.uk/Id/nhs-number"/>
                    <value value="3478526985"/>
                </identifier>
                <name>
                    <use value="official"/>
                    <text value="Mrs Julie Jones"/>
                    <family value="Jones"/>
                    <given value="Julie"/>
                    <prefix value="Mrs"/>
                </name>
                <telecom>
                    <system value="phone"/>
                    <value value="01138698975"/>
                    <use value="home"/>
                </telecom>
                <gender value="female"/>
                <birthDate value="1959-05-04"/>
                <address>
                    <use value="home"/>
                    <type value="both"/>
                    <text value="22 Brightside Crescent, Overtown, West Yorkshire, LS10 4YU"/>
                    <line value="22 Brightside Crescent"/>
                    <city value="Overtown"/>
                    <district value="West Yorkshire"/>
                    <postalCode value="LS10 4YU"/>
                </address>
                <maritalStatus>
                    <coding>
                        <system value="http://hl7.org/fhir/v3/MaritalStatus"/>
                        <code value="M"/>
                        <display value="Married"/>
                    </coding>
                </maritalStatus>
                <contact>
                    <relationship>
                        <coding>
                            <system value="http://hl7.org/fhir/v2/0131"/>
                            <code value="N"/>
                            <display value="Next-of-Kin"/>
                        </coding>
                    </relationship>
                    <name>
                        <use value="official"/>
                        <family value="Jones"/>
                        <given value="Philip"/>
                    </name>
                    <telecom>
                        <system value="phone"/>
                        <value value="01138698975"/>
                    </telecom>
                    <telecom>
                        <system value="email"/>
                        <value value="pjones@mymail.com"/>
                    </telecom>
                    <gender value="male"/>
                </contact>
                <generalPractitioner>
                <reference value="urn:uuid:94ca030c-03aa-4dae-8270-c2de2b7907ef"/>
                </generalPractitioner>
            </Patient>
        </resource>
    </entry>
   
    <!--Immunization administered during the encounter-->
    <entry>
        <fullUrl value="urn:uuid:631ec8d3-6341-4c9e-b2a1-131af62718f2"/>
        <resource>
            <Immunization xmlns="http://hl7.org/fhir">
                <id value="631ec8d3-6341-4c9e-b2a1-131af62718f2"/>
                <meta>
                    <profile value="https://fhir.nhs.uk/STU3/StructureDefinition/CareConnect-ITK-DM-Immunization-1"/>
                </meta>
                <extension url="https://fhir.hl7.org.uk/STU3/StructureDefinition/Extension-CareConnect-VaccinationProcedure-1">
                    <valueCodeableConcept>
                        <coding>
                            <system value="http://snomed.info/sct"/>
                            <code value="822851000000102"/>
                            <display value="Seasonal influenza vaccination"/>
                        </coding>
                    </valueCodeableConcept>
                </extension>
                <status value="completed"/>
                <notGiven value="false"/>
                <vaccineCode>
                    <coding>
                        <system value="http://snomed.info/sct"/>
                        <code value="22704311000001109"/>
                        <display value="Fluarix Tetra vaccine suspension for injection 0.5ml pre-filled syringes (GlaxoSmithKline UK Ltd)"/>
                    </coding>
                </vaccineCode>
                <patient>
                    <reference value="urn:uuid:9589fb37-87a2-48d8-968f-b371429209e3"/>
                    <display value="JONES, Julie (Mrs)"/>
                </patient>
                <date value="2018-05-09"/>
                <primarySource value="true"/>
                <location>
                    <identifier>
                        <system value="https://fhir.nhs.uk/Id/ods-organization-code"/>
                        <value value="FA000"/>
                    </identifier>
                    <dispay value="Overtown Pharmacy"/>
                </location>
                <site>
                    <coding>
                        <system value="http://snomed.info/sct"/>
                        <code value="368209003"/>
                        <display value="Right upper arm"/>
                    </coding>
                </site>
                <route>
                    <coding>
                        <system value="http://snomed.info/sct"/>
                        <code value="34206005"/>
                        <display value="Subcutaneous route"/>
                    </coding>
                </route>
                <practitioner>
                    <role>
                        <coding>
                            <system value="http://hl7.org/fhir/v2/0443"/>
                            <code value="AP"/>
                            <display value="Administering Provider"/>
                        </coding>
                    </role>
                    <actor>
                        <identifier>
                            <system value="https://fhir.hl7.org.uk/Id/gphc-number"/>
                            <value value="2145879"/>
                        </identifier>
                        <display value="SMITH, Eric (Mr)"/>
                    </actor>
                </practitioner>
                <explanation>
                    <reason>
                        <coding>
                            <system value="http://snomed.info/sct"/>
                            <code value="398192003"/>
                            <display value="Co-morbid conditions"/>
                        </coding>
                    </reason>
                </explanation>
            </Immunization>
        </resource>
    </entry>
</Bundle>