<Bundle xmlns="http://hl7.org/fhir"><id value="84c9686d-63d3-49de-9ff0-7fc81ce2d005"></id><type value="message"></type><entry><fullUrl value="urn:uuid:69a16d50-39ef-4f5d-90d5-68e50c5d969b"></fullUrl><resource><MessageHeader xmlns="http://hl7.org/fhir"><id value="69a16d50-39ef-4f5d-90d5-68e50c5d969b"></id><eventCoding><system value="https://fhir.nhs.uk/R4/CodeSystem/message-event"></system><code value="prescription-order"></code><display value="Prescription Order"></display></eventCoding><sender><reference value="urn:uuid:971a3295-3d29-4e52-912b-ef79baa26c54"></reference><display value="RAZIA|ALI"></display></sender><source><extension url="https://fhir.nhs.uk/R4/StructureDefinition/Extension-spineEndpoint"><valueIdentifier><system value="https://fhir.nhs.uk/Id/spine-ASID"></system><value value="12456789012"></value></valueIdentifier></extension><name value="DJM"></name><endpoint value="https://mait.digital.nhs.uk/"></endpoint></source><focus><reference value="urn:uuid:A7B86F8D-1D6D-FC28-E050-D20AE3A215F0"></reference></focus><focus><reference value="urn:uuid:A7B86F8D-1D72-FC28-E050-D20AE3A215F0"></reference></focus><focus><reference value="urn:uuid:A7B86F8D-1D77-FC28-E050-D20AE3A215F0"></reference></focus><focus><reference value="urn:uuid:A7B86F8D-1D7C-FC28-E050-D20AE3A215F0"></reference></focus><focus><reference value="urn:uuid:ae923818-c39d-4f72-a738-95eb7ba79f44"></reference></focus><focus><reference value="urn:uuid:971a3295-3d29-4e52-912b-ef79baa26c54"></reference></focus></MessageHeader></resource></entry><entry><fullUrl value="urn:uuid:ae923818-c39d-4f72-a738-95eb7ba79f44"></fullUrl><resource><Patient xmlns="http://hl7.org/fhir"><id value="ae923818-c39d-4f72-a738-95eb7ba79f44"></id><identifier><extension url="https://fhir.nhs.uk/R4/StructureDefinition/Extension-UKCore-NHSNumberVerificationStatus"><valueCodeableConcept><coding><system value="https://fhir.nhs.uk/R4/CodeSystem/UKCore-NHSNumberVerificationStatus"></system><code value="01"></code><display value="Number present and verified"></display></coding></valueCodeableConcept></extension><system value="https://fhir.nhs.uk/Id/nhs-number"></system><value value="9453740519"></value></identifier><name><use value="official"></use><family value="CORY"></family><given value="ETTA"></given><prefix value="MISS"></prefix></name><gender value="female"></gender><birthDate value="1999-01-04"></birthDate><address><use value="home"></use><postalCode value="DE21 4QH"></postalCode></address><managingOrganization><reference value="https://directory.spineservices.nhs.uk/STU3/Organization/B81001"></reference></managingOrganization></Patient></resource></entry><entry><fullUrl value="urn:uuid:f6282d91-ca65-443e-8f96-ee69bfa25490"></fullUrl><resource><Practitioner xmlns="http://hl7.org/fhir"><id value="f6282d91-ca65-443e-8f96-ee69bfa25490"></id><identifier><system value="https://fhir.nhs.uk/Id/sds-user-id"></system><value value="3415870"></value></identifier><name><text value="RAZIA|ALI"></text></name></Practitioner></resource></entry><entry><fullUrl value="urn:uuid:b80f9473-b6d2-444b-8e68-289bb941a922"></fullUrl><resource><Organization xmlns="http://hl7.org/fhir"><id value="b80f9473-b6d2-444b-8e68-289bb941a922"></id><identifier><system value="https://fhir.nhs.uk/Id/ods-organization-code"></system><value value="B81001"></value></identifier><type><coding><system value="urn:uuid:2.16.840.1.113883.2.1.3.2.4.17.94"></system><code value="001"></code></coding></type><name value="DR ME AHMED'S PRACTICE"></name><address><line value="700 HOLDERNESS ROAD"></line><line value="HULL"></line><line value="NORTH HUMBERSIDE"></line><postalCode value="HU9 3JA"></postalCode></address><partOf><identifier><system value="https://fhir.nhs.uk/Id/ods-organization-code"></system><value value="5E5"></value></identifier></partOf></Organization></resource></entry><entry><fullUrl value="urn:uuid:971a3295-3d29-4e52-912b-ef79baa26c54"></fullUrl><resource><PractitionerRole xmlns="http://hl7.org/fhir"><id value="971a3295-3d29-4e52-912b-ef79baa26c54"></id><identifier><system value="https://fhir.nhs.uk/Id/sds-role-profile-id"></system><value value="100102238986"></value></identifier><practitioner><reference value="Practitioner/f6282d91-ca65-443e-8f96-ee69bfa25490"></reference></practitioner><organization><reference value="Organization/b80f9473-b6d2-444b-8e68-289bb941a922"></reference></organization></PractitionerRole></resource></entry><entry><fullUrl value="urn:uuid:A7B86F8D-1D6D-FC28-E050-D20AE3A215F0"></fullUrl><resource><MedicationRequest xmlns="http://hl7.org/fhir"><id value="A7B86F8D-1D6D-FC28-E050-D20AE3A215F0"></id><extension url="https://fhir.nhs.uk/R4/StructureDefinition/Extension-prescriptionType"><valueCoding><system value="https://fhir.nhs.uk/R4/CodeSystem/prescription-type"></system><code value="0101"></code></valueCoding></extension><extension url="https://fhir.nhs.uk/R4/StructureDefinition/Extension-DM-ResponsiblePractitioner"><valueReference><reference value="urn:uuid:f6282d91-ca65-443e-8f96-ee69bfa25490"></reference></valueReference></extension><identifier><system value="https://fhir.nhs.uk/Id/prescription-line-id"></system><value value="A7B86F8D-1D6D-FC28-E050-D20AE3A215F0"></value></identifier><status value="active"></status><intent value="order"></intent><medicationCodeableConcept><coding><system value="http://snomed.info/sct"></system><code value="321196004"></code><display value="Diazepam 2mg tablets"></display></coding></medicationCodeableConcept><subject><reference value="urn:uuid:ae923818-c39d-4f72-a738-95eb7ba79f44"></reference></subject><authoredOn value="2019-12-30T12:00:00+00:00"></authoredOn><requester><reference value="urn:uuid:f6282d91-ca65-443e-8f96-ee69bfa25490"></reference></requester><groupIdentifier><extension url="https://fhir.nhs.uk/R4/StructureDefinition/Extension-PrescriptionId"><valueString value="A7B86F8D-1CF8-FC28-E050-D20AE3A215F0"></valueString></extension><system value="https://fhir.nhs.uk/Id/prescription-short-form"></system><value value="3C2366-B81001-0A409U"></value></groupIdentifier><courseOfTherapyType><coding><system value="https://fhir.nhs.uk/R4/CodeSystem/CareConnect-PrescriptionType"></system><code value="acute"></code><display value="Acute"></display></coding></courseOfTherapyType><dosageInstruction><text value="One to be taken at NIGHT"></text></dosageInstruction><dispenseRequest><extension url="https://fhir.nhs.uk/R4/StructureDefinition/Extension-performerType"><valueCoding><system value="https://fhir.nhs.uk/R4/CodeSystem/dispensing-site-preference"></system><code value="0004"></code></valueCoding></extension><quantity><value value="28"></value><unit value="tablet"></unit><system value="http://snomed.info/sct"></system><code value="428673006"></code></quantity></dispenseRequest></MedicationRequest></resource></entry><entry><fullUrl value="urn:uuid:A7B86F8D-1D72-FC28-E050-D20AE3A215F0"></fullUrl><resource><MedicationRequest xmlns="http://hl7.org/fhir"><id value="A7B86F8D-1D72-FC28-E050-D20AE3A215F0"></id><extension url="https://fhir.nhs.uk/R4/StructureDefinition/Extension-prescriptionType"><valueCoding><system value="https://fhir.nhs.uk/R4/CodeSystem/prescription-type"></system><code value="0101"></code></valueCoding></extension><extension url="https://fhir.nhs.uk/R4/StructureDefinition/Extension-DM-ResponsiblePractitioner"><valueReference><reference value="urn:uuid:f6282d91-ca65-443e-8f96-ee69bfa25490"></reference></valueReference></extension><identifier><system value="https://fhir.nhs.uk/Id/prescription-line-id"></system><value value="A7B86F8D-1D72-FC28-E050-D20AE3A215F0"></value></identifier><status value="active"></status><intent value="order"></intent><medicationCodeableConcept><coding><system value="http://snomed.info/sct"></system><code value="322236009"></code><display value="Paracetamol 500mg tablets"></display></coding></medicationCodeableConcept><subject><reference value="urn:uuid:ae923818-c39d-4f72-a738-95eb7ba79f44"></reference></subject><authoredOn value="2019-12-30T12:00:00+00:00"></authoredOn><requester><reference value="urn:uuid:f6282d91-ca65-443e-8f96-ee69bfa25490"></reference></requester><groupIdentifier><extension url="https://fhir.nhs.uk/R4/StructureDefinition/Extension-PrescriptionId"><valueString value="A7B86F8D-1CF8-FC28-E050-D20AE3A215F0"></valueString></extension><system value="https://fhir.nhs.uk/Id/prescription-short-form"></system><value value="3C2366-B81001-0A409U"></value></groupIdentifier><courseOfTherapyType><coding><system value="https://fhir.nhs.uk/R4/CodeSystem/CareConnect-PrescriptionType"></system><code value="acute"></code><display value="Acute"></display></coding></courseOfTherapyType><dosageInstruction><text value="As Directed"></text></dosageInstruction><dispenseRequest><extension url="https://fhir.nhs.uk/R4/StructureDefinition/Extension-performerType"><valueCoding><system value="https://fhir.nhs.uk/R4/CodeSystem/dispensing-site-preference"></system><code value="0004"></code></valueCoding></extension><quantity><value value="100"></value><unit value="tablet"></unit><system value="http://snomed.info/sct"></system><code value="428673006"></code></quantity></dispenseRequest></MedicationRequest></resource></entry><entry><fullUrl value="urn:uuid:A7B86F8D-1D77-FC28-E050-D20AE3A215F0"></fullUrl><resource><MedicationRequest xmlns="http://hl7.org/fhir"><id value="A7B86F8D-1D77-FC28-E050-D20AE3A215F0"></id><extension url="https://fhir.nhs.uk/R4/StructureDefinition/Extension-prescriptionType"><valueCoding><system value="https://fhir.nhs.uk/R4/CodeSystem/prescription-type"></system><code value="0101"></code></valueCoding></extension><extension url="https://fhir.nhs.uk/R4/StructureDefinition/Extension-DM-ResponsiblePractitioner"><valueReference><reference value="urn:uuid:f6282d91-ca65-443e-8f96-ee69bfa25490"></reference></valueReference></extension><identifier><system value="https://fhir.nhs.uk/Id/prescription-line-id"></system><value value="A7B86F8D-1D77-FC28-E050-D20AE3A215F0"></value></identifier><status value="active"></status><intent value="order"></intent><medicationCodeableConcept><coding><system value="http://snomed.info/sct"></system><code value="321152004"></code><display value="Temazepam 10mg tablets"></display></coding></medicationCodeableConcept><subject><reference value="urn:uuid:ae923818-c39d-4f72-a738-95eb7ba79f44"></reference></subject><authoredOn value="2019-12-30T12:00:00+00:00"></authoredOn><requester><reference value="urn:uuid:f6282d91-ca65-443e-8f96-ee69bfa25490"></reference></requester><groupIdentifier><extension url="https://fhir.nhs.uk/R4/StructureDefinition/Extension-PrescriptionId"><valueString value="A7B86F8D-1CF8-FC28-E050-D20AE3A215F0"></valueString></extension><system value="https://fhir.nhs.uk/Id/prescription-short-form"></system><value value="3C2366-B81001-0A409U"></value></groupIdentifier><courseOfTherapyType><coding><system value="https://fhir.nhs.uk/R4/CodeSystem/CareConnect-PrescriptionType"></system><code value="acute"></code><display value="Acute"></display></coding></courseOfTherapyType><dosageInstruction><text value="One to be taken at NIGHT"></text></dosageInstruction><dispenseRequest><extension url="https://fhir.nhs.uk/R4/StructureDefinition/Extension-performerType"><valueCoding><system value="https://fhir.nhs.uk/R4/CodeSystem/dispensing-site-preference"></system><code value="0004"></code></valueCoding></extension><quantity><value value="14"></value><unit value="tablet"></unit><system value="http://snomed.info/sct"></system><code value="428673006"></code></quantity></dispenseRequest></MedicationRequest></resource></entry><entry><fullUrl value="urn:uuid:A7B86F8D-1D7C-FC28-E050-D20AE3A215F0"></fullUrl><resource><MedicationRequest xmlns="http://hl7.org/fhir"><id value="A7B86F8D-1D7C-FC28-E050-D20AE3A215F0"></id><extension url="https://fhir.nhs.uk/R4/StructureDefinition/Extension-prescriptionType"><valueCoding><system value="https://fhir.nhs.uk/R4/CodeSystem/prescription-type"></system><code value="0101"></code></valueCoding></extension><extension url="https://fhir.nhs.uk/R4/StructureDefinition/Extension-DM-ResponsiblePractitioner"><valueReference><reference value="urn:uuid:f6282d91-ca65-443e-8f96-ee69bfa25490"></reference></valueReference></extension><identifier><system value="https://fhir.nhs.uk/Id/prescription-line-id"></system><value value="A7B86F8D-1D7C-FC28-E050-D20AE3A215F0"></value></identifier><status value="active"></status><intent value="order"></intent><medicationCodeableConcept><coding><system value="http://snomed.info/sct"></system><code value="322711002"></code><display value="Morphine 10mg modified-release tablets"></display></coding></medicationCodeableConcept><subject><reference value="urn:uuid:ae923818-c39d-4f72-a738-95eb7ba79f44"></reference></subject><authoredOn value="2019-12-30T12:00:00+00:00"></authoredOn><requester><reference value="urn:uuid:f6282d91-ca65-443e-8f96-ee69bfa25490"></reference></requester><groupIdentifier><extension url="https://fhir.nhs.uk/R4/StructureDefinition/Extension-PrescriptionId"><valueString value="A7B86F8D-1CF8-FC28-E050-D20AE3A215F0"></valueString></extension><system value="https://fhir.nhs.uk/Id/prescription-short-form"></system><value value="3C2366-B81001-0A409U"></value></groupIdentifier><courseOfTherapyType><coding><system value="https://fhir.nhs.uk/R4/CodeSystem/CareConnect-PrescriptionType"></system><code value="acute"></code><display value="Acute"></display></coding></courseOfTherapyType><dosageInstruction><text value="As Directed"></text></dosageInstruction><dispenseRequest><extension url="https://fhir.nhs.uk/R4/StructureDefinition/Extension-performerType"><valueCoding><system value="https://fhir.nhs.uk/R4/CodeSystem/dispensing-site-preference"></system><code value="0004"></code></valueCoding></extension><quantity><value value="28"></value><unit value="tablet"></unit><system value="http://snomed.info/sct"></system><code value="428673006"></code></quantity></dispenseRequest></MedicationRequest></resource></entry></Bundle>